Folder: data/week4

File: XRD_data_Mo_anode.csv
# 0-35 degrees, NaCl crystal, 35keV, 1 mA, Mo anode
# angle/deg,CR /s
2,4.2
2.12,3
2.24,4.8
2.36,7.2
2.48,4
2.6,7
2.72,7.6
2.84,7
2.96,7.8
3.08,12
3.2,28.2
3.32,56.2
3.44,132
3.56,232.6
3.68,323.2
3.8,387
3.92,440.4
4.04,467
4.16,495.4
4.28,510.4
4.4,513
4.52,510.4
4.64,511.2
4.76,517.4
4.88,514
5,490.8
5.12,503
5.24,506.2
5.36,468
5.54,457.8
5.78,436.2
6.02,434.8
6.14,511.6
6.26,695.2
6.38,941.8
6.5,808.6
6.62,549.2
6.74,516.8
6.86,584.4
6.98,854.8
7.1,1588.4
7.22,1947
7.34,1411.6
7.46,702.8
7.58,475.2
7.7,389.2
7.82,336.6
7.94,330.6
8.06,313.8
8.18,294.6
8.3,293.2
8.42,274.4
8.54,265.2
8.66,262.6
8.78,254.2
8.9,233.6
9.02,239
9.14,212.6
9.26,209
9.38,189.2
9.5,177.6
9.62,175.8
9.74,164.8
9.86,159.2
9.98,144.6
10.1,142
10.22,142.8
10.34,132.2
10.46,128
10.58,122.2
10.7,114.4
10.82,117
10.94,117.4
11.06,119.6
11.18,110.2
11.3,104
11.42,115.4
11.54,105.4
11.66,102.2
11.78,95.2
11.9,102.2
12.02,100.2
12.14,104.4
12.26,102.2
12.38,95.6
12.5,96.2
12.62,136.6
12.74,180.8
12.86,253.2
12.98,244.4
13.1,138.2
13.22,104
13.34,95
13.46,94.8
13.58,87.8
13.7,90.2
13.82,85.4
13.94,83.6
14.06,97.6
14.18,110.2
14.3,169
14.42,428.4
14.54,671
14.66,505.4
14.78,182.6
14.9,79.6
15.02,76.4
15.14,78.4
15.26,70.4
15.38,67.6
15.5,72.6
15.62,72.6
15.74,69.6
15.86,76.4
15.98,63.8
16.1,53
16.22,62
16.34,59.2
16.46,56.8
16.58,62.6
16.7,54
16.82,49.4
16.94,53.8
17.06,52.4
17.18,52.6
17.3,51.4
17.42,54.4
17.54,49.6
17.66,48.6
17.78,46.8
17.9,38.8
18.02,46
18.14,46.8
18.26,41.2
18.38,38
18.5,37.4
18.62,40.6
18.74,41.6
18.86,39.8
18.98,39.8
19.1,42.4
19.22,38.2
19.34,43.8
19.46,61
19.58,73.8
19.7,55.2
19.82,39
19.94,34
20.06,33.8
20.18,32.6
20.3,30.6
20.42,30.2
20.54,30.4
20.66,28.6
20.78,28.4
20.9,32.2
21.02,32.4
21.14,30.2
21.26,28.6
21.38,33.2
21.5,29.6
21.62,27.8
21.74,32.4
21.86,46.6
21.98,78.2
22.1,128.6
22.22,126
22.34,68.4
22.46,39.4
22.58,26.8
22.7,23.2
22.82,28.6
22.94,25.2
23.06,28
23.18,25.2
23.3,26.2
23.42,20.8
23.54,21.2
23.66,22.2
23.78,22.2
23.9,20.8
24.02,19.8
24.14,20.6
24.26,20.4
24.38,22.4
24.5,21.6
24.62,21
24.74,20.2
24.86,18.4
24.98,19.4
25.1,18.4
25.22,20.2
25.34,16.6
25.46,18
25.58,16.4
25.7,21
25.82,18.8
25.94,19.2
26.06,16.4
26.18,19.6
26.3,21.8
26.42,19.8
26.54,25.8
26.66,20.6
26.78,17.8
26.9,14
27.02,19.8
27.14,16.6
27.26,17.6
27.38,14.6
27.5,18.8
27.62,16.8
27.74,12.2
27.86,13.4
27.98,14
28.1,16
28.22,15.8
28.34,17.2
28.46,15.8
28.58,15
28.7,14.4
28.82,13.2
28.94,17
29.06,14.4
29.18,16.4
29.3,14
29.42,15.2
29.54,16.4
29.66,15.6
29.78,17.6
29.9,21
30.02,26.4
30.14,29.6
30.26,26
30.38,22.2
30.5,15.6
30.62,12.4
30.74,14.6
30.86,11.8
30.98,16.4
31.1,10.8
31.22,11
31.34,11.2
31.46,11.4
31.58,11
31.7,16
31.82,14.6
31.94,13.8
32.06,12
32.18,10.2
32.3,8.6
32.42,9.6
32.54,9.8
32.66,15.4
32.78,11.2
32.9,12
33.02,13.2
33.14,7.6
33.26,11.2
33.38,12.2
33.5,8.8
33.62,10.2
33.74,10.8
33.86,10
33.98,12
34.1,11.8
34.22,12
34.34,11.4
34.46,11.2
34.58,8.6
34.7,10
34.82,8
34.94,10.4
35,10